Thinking about university degrees, I think that most of students agree on the idea that nowadays universities offer a kind of degrees that have mainly theoretical contents, and so, the practical part has little importance or it has less importance than it should have. Taking as starting point my own experience, I can say that in my degree, which is English Philology, most of the contents are only theoretical which is paradoxical if you think that most of people are going to focus their future on the teaching of English as a foreign language either in high schools, in universities or giving particular classes; so, why don’t we have any subject focused on the way of teaching students a foreign language? There are other degrees in which students have some hours in which they have to go to a school and they became teachers for a while, and that’s all before having their degree finished, but that happens only in this case, but not in my degree. I think that this kind of practical contents are necessary, because if you are not taught how to share your knowledge with your students, It is very easy that you do not find the way to explain concepts that you find very obvious, or maybe you will explain them in a way that would not be adequate for students; and if you do not know how to teach what you know it is not important the great amount of concepts that you can know; for example, if a person that is studying medicine does not put in practice all the concepts achieved during the degree, I don’t think that once he has the title he can say that he’s a doctor, because he’s not going to be able of dealing with ill people in spite of all his theoretical knowledge. I think that practice is even the most important part of a degree, because if you go to the real world you can find that there are a lot of people capable of doing their work very well without having a specific theoretical preparation for it , because practice has taught them how to make work better and how to work in the easiest way possible, but we can also find the other way round: we can see that there are a lot of people that have finished their degrees and that are not able of facing their new work without the help of that experienced people. Taking into account all this, I think that we are not going to be prepared for facing the label market once we have ended our degree because we lack the experience that we are going to be asked; because with this kind of educational system is not easy to fit the prototype of worker that the companies want : young , well prepared and with practical experience; so if you adopt a very critical point of view you will probably end by saying that this kind of theoretical degrees are of a very little value.I agree with this topic because I am studying English Philology and all is theoretical and it does not prepare us for the real life. We only have some real work when we do the C.A.P. and it is only for a couple of months…and this is not time enough. I think that one of the degrees that most helps students for the real life is “magisterio” because my sister is studying this degree and she has practice classes that consist in going to schools and helping the teachers that are working there. She also works in the class with the students as if she was the teacher and not the practice teacher….and she enjoy it. And I have said this example because I know what really happens because I have somebody near that told me her case. But I have other friends and they all share the same opinion…they feel that they are not going to be well prepared studying in the way they do and think that their degrees are too much theoretical and do not prepare them for the outside life. I do not think that the fact of introducing hundreds and hundreds of ideas, lessons, etc in ones heads helps you to be better prepared … because somebody can be a very good student but can not work correctly and somebody that does not like to study can do his/ her work correctly. I also think that a more practice class could be a very good method for encouraging people to do more things, to motivate the students to go at class, to prepare themselves better, etc. I honestly have to say that the degree that I am studying is completely different of what I thought it was going to be. I will explain myself better: when I chose this degree ( because I was not sure because I also want to study psychology) I thought it was going to be quite different: with more English lessons, more oral lessons, more practice…because the fact of studying lots of authors, studying the English history does not help you to speak English better….and if you want to be a English teacher the only lesson that can help you is the C.A.P. when you have already have finished the degree or “perspectives” and this is not enough. So I think that the degrees or most of them should be checked over again because it can be a motive for giving up studies or when you finish you notice that all what you have studied does not help you for what is waiting for you in the real life. Because finding a good job is very difficult nowadays.. there are too little good jobs for too many prepared people…it is really a competition…and only the best can win. So everybody, the university system, the government should do something to arrange the problem.This topic in my opinion is very realistic in the sense of we, the students, are not really prepared for the real world. I am going to begin talking about my career because it is about what more knowledge I have. It is true that, philology students had to do the C.A.P. to can teach in a school, but this course is not sufficient for us. During the fifth years of career we have practical classes, minimal practical classes in which above all we have to talk, but some students that are shy are not going to talk there and obviously the teacher is not going to force it to talk, because there are more students and the class is very short in time. Besides, in the university the treatment of the classes and the students is obviously again very different from the high school, because of the number of students. I know that if you are studying a career you should be sufficient coherent and mature to know your priorities and if you want to improve your English you should speak even a little. I know, by mouth of some friends that another careers are the same than mine, because in the university, in what a teacher is interested, is in giving you the main information about that career, it is normal that in a career about Law, you cannot go to a City Hall if you are not prepared theoretically first, or in an example even more obvious the Medicine career: this kind of career needs a very practical classes because in their hands ( when they be doctors ) will be our lives, and we, as a teachers, will have to explain to a group of children some information about a language, or literature ( although it can be more dangerous ). In relation to the C.A.P I think that in only three or four months is not sufficient to prepared us, and since you finish the C.A.P until you got a job you forget all that you learn and while the time passes you have less opportunities to get a job as a teacher; you want independence and you get a temporal job meanwhile you prepared oppositions and if you have the luck of getting a job, you accommodate there and think: why am I going to continue studying if I have money, a house, a boyfriend…? It is true that there are a lot of people and that all are not at the same way, but in my case that I am 26 years old I am thinking in finishing the career to can live with my boyfriend as soon as possible, and if I want do it I have to work, and I have to work in the first thing I can; of course I would like to be a teacher or something related to it and I have been thinking in giving classes to old people, because it can be more interesting. This is, in a way, treated since a point of view very subjective, but if we think in this topic since an objective point of view, I would say that in general all careers have only theoretical preparation, but although we, students, had practical classes during all the career and several hours a day, we will nor prepared for the real world. I think that until you be in the laborer world more or less two or three years you will not prepared for working on it. You will be able to do your job perfectly, but the laborer world is very hard.As the old song says “Money is the root of all evil”. I think this is a big truth. Throughout the history of mankind we find examples of people who became cruel, egotistic, and mean, only because they had a lot of money and power. I think that money is closely related to power, once you have power, you are rich (economically talking); and normally once you have money (a big amount of money), you are powerful. Many people devote their lives to earn as much money as they can get at any price. They step over other people lives and dignity because they are so blind they only think of getting rich and buy as many things as they can, they want to have the biggest house, the most expensive car, etc. In The Great Gatsby we see how people change their personality once they are rich. They are proud, cynical, hypocritical… they think they can rule other people lives, they do not care about feelings or friendship, the important thing is to be in the highest step of the social scale. Moreover the richer you are the meaner you become (the rich countries do not share their richness with the poor). From the childhood we a re worried about money. We cannot buy a car because it is too expensive, we cannot go on holidays because money is short and your parents have to pay the rent of the house, food, clothes, etc. There are a lot of examples of people who get desperate because they are not able to pay their debts. We have a close and current example in Argentina: people are starving, robbering, murdering, or killing people in order to get food or money to survive. This is provoked by money. The animal instincts we have hidden for years, while we had money, have savagely arisen because desperation has come into our lives. In this world nothing can be done if we do not have money. In Argentina the situation is so desperate that persons are now animals, they have been driven to that situation, which seems to be endless. They have gone back to older times when the exchange of things was the normal way of “buying”. This kind of situations have happened throughout the centuries. There are a lot of movies in which this topic is the main theme. For instance, ¡Qué bello es vivir!, in which the protagonist is driven to commit suicide (although at the end he is saved by an angel) because the crack of 1929 has led his bank to bankrupt. Money has led many people to commit suicide, to kill people (desperate workers who kill their former bosses because they have been fired), to kill even members of the same family (In Jude, the obscure Jude´s son kills his brothers because they do not have money to survive), etc. Although these are examples taken from literature, they reflect real situations, to which the rest of the people do not pay attention. After all, many of us think that that kind of things will never happen to us. Many people say money gives you happiness, but some people want to get as much money as they can. Sometimes we think we will never do the things we see or hear on TV, or read in newspapers. “Those people are criminals or they are totally crazy”, we would say about people who kill because they were so desperate they could not think of anything else but killing or stealing. The terrible thing is that in cases of complete desperation (we are talking about having no money at all for a long period of time, or even for a few days) people are capable of the most terrible things, because after all, we are animals (although we are supposed to be the most intelligent of the animals). Money was, is, and will be the most terrible of the diseases because there is no antidote against greediness.In the last years there has been a growing disappointment with higher education at Spanish universities. Some of the opinions even stand that university degrees are of little or no value because they don´t prepare the student for the labour market, that is, to compete on the real world. Although not every opinion is as extreme as the one mentioned it is necessary to look into the reasons of it existence. At the beginning of the 80’s a reform of the educational system lead to a sudden increase of the number of students at the universities which caused problems due to the lack of space, teachers and , generally speaking, money to cover all the university demands. Therefore, new faculties were built and also new campuses were created to satisfy the demands. All these facts made Spain one of the countries with the highest rate of university students. However , new problems appeared: now there were too many graduates for every post-actually we cannot make a sweeping statement about this fact because the offer and the demand varied greatly from one job to another. But the worst of all was to realize that there was a huge gap between what the university had taught and what the daily duties of the job demanded. It was a painful discovery for the graduates and a surprise for their employers. Sometimes it lead to the utterances of really disappointed points of view. For some years the overpopulation of the faculties was to blame for that, but now that it is over the detachment from the real world that some people experiment still remains. So, what are the reasons, then? Are the university organization to blame? The laws that rule them? The politicians that do not improve them? The teachers who are not orientated enough and therefore cannot guide the students? Is it the students who are not really so much worried to be alienated from reality and just try to have a good time as their education lasts? There are so many opinions that it is going to be difficult to find the real causes and probably even more to solve them.
As far as I am concerned the words of the old song “Money is the root of all evil” are related to our society nowadays. Society is changing very quickly. A lot of industries are being built and there is a lot of competivity between workers. In the days we are living, not everybody is happy and not everybody has a well-paid job. We can make an important distinction between rich people and middle-class people. In spite of the fact that rich people have a lot of power and money, we can say they are corrupted people: they want more and more. On the other hand middle-class people are costumed to live only with the basic things in life and they are usually happy. The problem appears when that poor man/woman becomes a rich person. Money destroys him. Family feels alone and without protection while the main person of the family is working out. There isn’t comunication between them and consequently the family is broken up. If the family is formed by children, these children will be independent and they will do whatever they want because their parents will be too busy working or arguing between themselves. Another different things to point out “money is the root of all evil” are the singers, actors or famous people. They usually started with a mediocre salary but when they started to be famous, they usually lose the control of their lifes (I should say this does not happen always but it is true this happens in most of the cases). They have to spend a lot of time away, without looking their families and friends. They are under pressure and sometimes these factors help them to prove drugs or alcohol. They have to bear day after day fans, interviewers, etc, and this is the prize a famous person has to pay if he/she wants to be a singer or an actor. When they realized all the money they have, they don’t know what to do with it and in most of the cases they spent the money in silly things. When they get older they have to sell their lives because they are ruined. I think this is a very sad thing. I could write in this paper a lot of different cases more in which we can see clearly tat “money is the root of all evil”. For example: sanity depends on the money: if you have money, you will be treated in better circunstances. Education and policy are two items very related with money too but I don’t want to lose my nerves writing about that. Summing up, as you can see in all these cases, everybody is guided by money: Money is very powerful and it gets to attack people of different social classes and ages. The only thing I have very clear is that human being is corrupted by nature. Nobody is coformed with his life. Everybody wants to be better and this wish to get it destroys lives.


It has been said that all that money touches becomes corrupted, and it may be true. If we think about all the problems that ambition causes, maybe we will be less ambitious and may be we will give more importance to the things that really have it. How many are the cases of people that killed for money, that left their families for searching the great oportunity of their lives: that is to become rich. I’m not saying that all who wants money can be a bad person, but money is not at all good reason for making something so terrible as comitt a crime. Money, it’s impossible to live without it, and it is demostrated everyday and in everywhere that if you don’t have money, you are nothing. It sounds radical that the fact of having or not money can determine our way of life and what we are, but in this capitalist society in which we live, money is the religion of almost everyone. However, there are some people who give money the importance that it really has, that is, money as something transitory, that could bring us some happy because it allows us to buy food, clothes, to have some pleasures in life, but we cannot forget that money can-not buy everything, it cannot buy health or life. Money is not the root of evil, it’s only a temptation which may lead us to evil. It has its valor as everything has. The evil emerges from the people who do not recognise the real valor of money; and these people discover later or soon in their lives that money isn’t the most important in this life.


One can think that money is the root of all evil because it seems clear enough that when someone is the owner of a big amount of money they are supossed to be something else, almost a Godness by society. Form this point of view, it is easy to imagine the differences between such “special being” and the rest of mortals, I means that this person is allowed to doing everything he/she wanted and, of course, this fact provokes a lot of problems and wakes up a sort of bad feelings towards both parts. The rich person also begins to separate from the part of society different to him/her and usually his/her only target is to get more and more money and to go up in the social scale (It nevermind who you must “smash”). But, there are a huge amount of evils that are not consquence of the money such as quakes, disseases, traffic accidents, etc… I think it is not money the root of all evil. We are the guilties but we need an excuse and money is the perfect one. If we try to imagine a society where money doesn’t exist in order to avoid social differences it will be the same that if we try to imagine a society where all citizens have a lot of money, the same amount of money. They would have money but they wouldn’t be corrupted because there wouldn’t be differences between them. So, as far as I am concerned, envy is more dangerous than money.


In the days we are living, it seems as if money ruled our society: There is a well known proverb, which says: money makes the world go round. Unfortunately, this saying is true due to the fact that, nowadays without money you have no importance. In these violent days we are living, there is a dimension of truth in saying that money is the root of all evil. A few bills or some golden coins in our purse may make us really happy but they can also destroys someone’s life. If one owes money to other person, he can be attacked, if it is to the bank that he owes it, he may lose his house, if a third world country is in debt with a rich one, it may be invaded or denied any kind of help. The question is, where do we go without money? Nowhere seems to be the most likely answer. The worst things happening nowadays in the world seems to have their origin because of economic reasons. Wars, famine in underdeveloped countries, terrorism or ecological disasters. Someone must have some profit with all these disgraces, otherwise it seems probable that some person or institution may have the solution to solve these global problems. Times when making money with one’s effort seem to be lost, while the important thing seems to be making a large amount of money as soon as possible without thinking in the consequences this practice can have.


I agree with this sentence: “All armies should consist entirely of proffessional soldiers: there is no value in a system of military service”. Military service can be useful if people go there in a good manner. If you impose something like this you’ve to take into account people against this. With a military service imposed the work is excessively because young people are not volunteer for this proposal. But if we have a group of people who want make a military service, their instruction will be better. If a person wants to make a military sevice this person will be prepared in a best manner than a person who is obligated. Voluntary service is better. If a person go to the military service if he wants, he will be a good soldier. Soldiers without a preparation could be an easy target in a war. If we thing of a war, we will need soldiers with a big experience. If we have a war and we send to this war soldiers without experience, we could have terrible consequences. All our soldiers could be asasinated and destroyed. If military service is something volunteer every nation can increase the number of its soldiers. Every nation’s soldiers could be amazingly good. If we have an army formed by proffessional soldiers we will have a good army. They’re going to be prepared in different aspects of the war. We could have a group for desactivating mines, other group for fighting in enemie’s positions, other group for attacking enemies in their positions, and so on. We had the war of Irak recently. In this war we could see the form of acting of the best soldiers. In this war we could see groups extremely prepared. This is a project of the soldiers. I’m talking about an american project for creating the best soldiers in the world. These soldiers receive an special preparation for combats and wars. This special project of americans have a name: “landwarrior”. With this, it looks for the best soldier with an equipment amazingly sofisticated – Guns, radars…If we have normal people in the army we cannot do this kind of projects. Normal people couldn’t do something. We need a group for looking for mines in the sea etc. For these kind of things we will need special soldiers. Professional soldiers can do all these things. Professional soldiers enjoy making all these things. But normal people can’t do this kind of things.


It is widely recognized that the education-system in Spain leaves lots to be desired, let alone English teaching system: When entering the University, students expect ot reach an almost native speaker level of English as soon as they are on their final year. But the cold hard fact is that it is not true. Lessons are boring and most people decide to leave before they finish. It is also true that lessons are very theorical; the student has not the choice to participate because they pass the time copying what the teacher is saying. Fortunately, the situation is changing and more and more teachers are getting aware about the situation. This does not mean anything. Some teachers have accepted to improve their lessons, but others could not care less about the theoretical lessons. On balance, the system would be possible to change. It all depends on the students, willing to learn and sensible teachers willing to teach.


It is quite surprising the fact that many people believe that money is one of the most important things to achieve happiness as statistics show. This kind of statement reminded me of an old song claiming that “Money is the root of an evil” and I asked my friends if they agreed with this belief. Needless to say that there was a wide range of opinions; they can be divided into two groups: those that are for the topic would integrate one of them and the other one would be formed by those people against the argument. The group of people agreeing with the idea of moneyas the root of all evil support their belief by saying that when someone looks anxiously for increasing the amount of money hidden on his or her pockets, this person has a main objective achieving a successful ending, therefore he or she would go through on the steps leading to money forgetting ethics and names. For all these people material things are like Gods and this is very badly seen in the eyes of society. On the other hand, we find the group of people disagreeing with the idea of money as source of evil. They base their opinions in the fact that money is proved to be necessary to achieve happiness and they make special emphasis in the fact that money is needed to achieve happiness but that money is not happiness. Therefore they cannot understand what is wrong in trying to achieve money to cope with the daily situations. To sum up, I would like to say that money can be seen as the source of evil or not, but in my opinion, what is the source of evil is that bad us of money.


In my opinion, I think the question is not if “money is the root of all evil”, because obviously money is necessary for living, but I think that the matter is just like about who has the “Money”. I mean, if you look at the socio-economic situation of the world you can see that the most of the resources and the access to information belong or are ruled and controlles by a very little part of human beings, whose are living in the so-called 1rst World, while the rest of humanity must live with the minimum for surviving. So, I think that is not an acceptable situation. We are, in a certain way, responsible of this situation, and we have to work very hard if we want to change something and we also have to try that those less-favorablished countries and people could live with dignity and improve their expectatives.


I am a 24 year-old woman and ever since I was born (well, perhaps ever since I was a kid) I was conscious that money was extremely important. It means it all to some people. Without money you are nothing in this society. Every time I turn on my televion set and I switch on the news, all I find are wars, murders, thievery, exploitation, discrimination…I suppose there are several reasons for these horrible affairs and issues, but all this evil shares a common root which is money. If money did not exist, this world would probably be a better place. Not perfect, perhaps, but many of our problems would disappear. The importance humankind gives to money is outrageous. We are losing our moarl. We could rather have mor cents in our pocket than help poor people and beggars who plead on sidewalks and streets. People are dying of hunger and all we worry about is having a larger car or a better music equipment.


Most university degrees are theoretical and do not prepare students for the real world. This “problem” has many consequences. When students leave university and they decided to look for a job they find many difficulties. These students know theoric question, they can give exact definitions about a great number of terms. But they are not able of making some practices such as, explain a theme or a subject to a child or do all the things that they know theoretically. Most people think that they have a university degree and they don’t know nothing. They are uncaple of developing simple activities. They associate their future with darkness. In fact, in some occasions they think that even a baker is more prepare than they for the real world. A world in which you have to look for a job, and in this situation, another problem is: Where can I go for finding a job? Actually, a young boy finishes his degree and the first thing or idea that appears in his mind is now, what? All students have many questions and few answer. And, of course, they also feel fear because they are secure that they are not prepared for develop a job. How can a “new” doctor open a body of a human if he has never do it? One of the most difficult things is to find answers for all these questions.


People spend most part of their lifes preparing to become a future professional. Getting an Uiversity degree is a long process in which they spend a lot of time and effort. In spite of all their effort, after finishing their degree they feel as if they had not learnt all they wanted. Degrees are focused on introducing students in a lot of new topics, but they don’t really value if this topic would be useful once they start working. There is no point on spending five years studying something which will not have any practical purpose. Most teachers are only worried in expalining all the topics, but they do not try to apply them to real life, so that these topics stop being duperficial. By doing this they could catch students attention and they would help them to develop in real world. Subjects must be applied to everyday life in order to understood easily. Learning a lot is not so important as to understand what you learn. Learning cannot consist only on theory but also on practice. Learning five hundred pages by heart is not useful as learning a half of them and spending the rest of time trying to apply them to real world. Appart from this, it is easier learning and studying when you had previously made a lot of practice about the topic. Some teachers should think about waht few things their students have learnt of all the lot of things they have said. Learning is a difficult process which should be taken seriously. It is not something you do without expecting to receive something. Students want to learn how to use their knowledge in future.


Nowadays most universities present an extremely theoretical structure in their main subjects. This is the situation of university degrees related to science and also to humanistic or letters. In the particular case of philology our subjects result too theoretical and the practical part is forgotten in most cases. To reach good marks is very important but in may cases this is the only thing we are focused on in our studies and we are not aware that we have only adquired theoretical knowledge. It is necessary to prepare students to their future but not only from a theoretical point of view. Different real situations should be exposed in our lessons, situations which we will have to face up after finish our studies. This is perhaps more visible in those studies related to science. For instance in Medicine, Psychology... it is essential to practice all that students have learnt in University. Because of this lack of practical preparation it is not strange to see situations which surprise us when we find people who do not know how to do their job. To sum up it can be said that although theory is important, practice should be given more importance.


Nowadays we can observe that most of the university degrees are theoretical. But what must be a degree and, generally, the education? It must be only a source knoledge more or less usefull, a weapon for the students and future workers to be prepared to enter in the real world? In my point of view, degrees have to be tools to enter in the society. The first argument I want to mention in favour of the practice is that, although there is no doubt that theoretical lectures are important, we have to consider the relevance of the practical ones too. In fact, as I have said before, in any job you can may employes will ask for experience, and so, practice. On the other hand, another educati/cional argument is that joining the theory with the practice would turn classes less boring and the subject would be more understandable. Degree’s programs need a reform and I don’t know why politians involved in education don’t change it. If we want a future generation prepared to real world we have to change degrees.


A student who has finished his studies at university is not always prepared to work. At universities the majority of lectures are magistrals, there are not practical classes. The proffessional diplomas are practical but they are undervalued, most of students want to take a university degree. It is believed by the majority of university students that practical lectures are hardest than magistral lectures, they prefer to do a major effort at the end of the year, not the whole year. In addition to this, university teachers prefer magistral lectures because they have not to prepare classes before. The majority of university teachers are old and they are tired of teaching. Moreover the majority of university degrees are totaly theorical:filologies, policies, law studies... and they are supported by old studies plans without practice. In addition there is another problem: mediums for practice are very limited. Against this it could be argued that not all of university degrees are theorical. A lot of them have practical lectures, for exemple: nursery studies, gymnastic studies, ...At this faculties teachers teach practice and they dispose of practical mediums. In conclusion, after I have explained the most importants points of view about this topic I want to ask myself something: “Can we change our university studies system?”. The answer is in our hands.


Actually most university degrees do not prepare students for the real world, because they are theoretical. For that reason students are in a difficult situation. In the real world all is practise and they are not prepared for that. We must search the best solution to them. Nowadays university students are not prepared for the real world. In fact they had studied more theory than practise. However in the laboral work practise is more important than theory. On the other hand we must say that there is not practise without theory and also that theory has to be linked to practise. They have the same importance. In addition to this we have to say that some teachers only teach theory and they have not interest in practise. They argued that theory is the more important base. Therefore, because of what I’ve said in the body of my essay that’s what I think about university degrees: I think education system has to change. It’s necessary to prepare students in a best way in order to facilitate their laboral future.


First of all, we should make a distinction between outdoors places, this is places exposed to open air, and indoors places, where the air can not circulate loosely. I think that the impact of smoke(from tobacco) on the lungs of passive smokers is higher on a closed or indoors place than on an open or outdoors one because the air can not circulate and be renewed in the same way in both places. Regarding the outdoors places, we realize that there is full air circulation and renewing so the only problem we can find will be the smell of the tobacco smoke. This trouble can be avoided establishing two separated zones: one for smokers and the other for non-smokers with a slight separation but in the same place. In the case of indooors places, we find that air circulation is poor and even a good system of air-conditioning can not provide a renewed air as if we were outdoors. Taking this into account, we should try to avoid the contact between smokers and non-smokers creating a zone for each one of them. Those zones should be fully separated; this is, each one should be a room with total independence rom the other one. They should be considered as different places regarding their degree of separation and, this way it should be impossible that a smoker one could be affected in any way by the pollution of tobacco smokers. To sum up, I think that it is very difficult to find a public indoors place that could be divided in two to allow the creation of smoking roooms or even duplicating its services, for example: Can you imagine two different queues, one for smokers and the other for non-smokers, at the entrance of the INEM? So my conclusion is clear; it should be legal smoking in outdoors public places because with a few organization and respect there should not be any trouble, but regarding indoors public places, I think that smoking should be illegal because any health damage should be avoided, even the smallest possibility, and also the option of dividing the public places is very expensive and almost impossible.


The consumption of tobacco should be banned in public places. Smokers can make use of their rights in many places without disturbing other people. Furthermore, the rights of non-smokers should prevail before the ones of smokers, the health before the disease. We should not forget that tobacco is one of the main causes of death in our country nowadays, so if you decide to die, you don't have to condemn others to death. As mentioned before, a person who usually smokes has a lot of places to do it, and he should avoid disturbing others. Nowadays there have been established laws thaty impose the restriction of reserved areas for smokers in public places. However, harder laws should be passed in order to make these spaces to be respected. What's more, penalties should be imposed to those who do not respect them. Smokers can make use of their rights in these public reserved zones and they can also do it in private places such as their cars or their houses. The rights of non-smokers should have a greater weight in society, as they take care of their healteh when they make the decision of non-smoking. The health should prevail before the disease, specially when pregnant women and children become the victims of the smoke of the tobacco indirectly .


I agree with this statement because I consider that nowadays the University doesn´t prepare students for the real world. Classes are principally theoretical and in my case, for example, if I want to learn a language I know that I must travel abroad because if I stay here I´ll never learn it. I would like to have more practical classes with more speaking and learnings´exercises. I have the impression that when I finish the career I will not know to speak English (or other language) as I would have wanted. It´s the hard reality! I also think that Spanish educational system is worse thatn other European systems and it is reflected in the high level of unemployment. Students are less prepared than other European students. After, when they must get a job they don´t act as it´s expected. Another cause is the lack of help from governments, which are more interested in financial, economical and territorial issues than in educational problems. It´s very ashamed! Without a serious education we will never integrate in a plural society.


Through all our life we are told what to do, what it is morally wrong and what is not. Some people feel free to talk about everything, but they do not realize that most of the times they talk only through their point of view.They think they are the truth, and thus they do not care about other people feelings and as a consequence these 'gods of the word' are preventing people's most valuable thing: freedom. If we focused our speech on Spanish homosexual marriages there should not be any point of dicussion and the answer should be very easy. 'Should the marriage of persons of the same sex be allowed?', 'Yes'. The reason to this is that our main law, the Constitution, is based on the principle that every individual is free. Any individual of the Spanish society can do everything he wants to since he does not hurt psychologically or physically any other. Taking this statement as a referent there should not be any difficulty to answer the question made. But although our society is based on this old principle many sectors of society are against it. These groups' thoughts are similar in all the rest of the world. We can add then that the rest of the world does not have the same Constitution we do, and this would be a reasonable and true opinion. The United States of America are not ruled by Spanish Constitution, neither Russia, nor Italy, but they all have one aspect in common. All these countries are formed by human beings and humanity is controlled by a kind of universal law, which is the Human Rights. In my opinion and probably in the opinion of the people that allowed their signature to be on the Declaration of the Human Rights, every decission taken must be under consideration of this sense of freedom and respect. If people do not respect each other there would never be freedom, thus the more fragile individuals will always be governed by the strong and powerful. Besides, if some people say the only believed in God's word we may say to them that the first and main point of Christianity is to love each other as oneself. People should love and respect the others without paying any attention to their culture, colour of sin, sexuality, ... Although taking into consideration all these legal aspects, both political and religious, there is one factor that we can not forget, which is: history. People are conditionated through history under a patriarchal society, where the family is the main important element. This family will be formed by a man, a woman and their children, and anything that will go against this will be considered odd and irregular, but what is worst, it will be considered illegal. All in all, if we want to live in a better place, where people will feel free and live in harmony and peace, the main element will be respect,and thus every body should be able to decide who they want to live with, and who they want to love, without any kind of restrictions; through this we could be able to say that we live based on the terms of Freedom and respect.


The prohibition of smoking in public places is a controversial theme. The smokers and non-smokers have a great different opinion, Both of them have rights, but the problem is that these rights are totally opposite. Smokers want to smoke when they need it, and they do not think about others, their preocupation is satisfying their necessity. On the other hand, non-smoker's popinion is that they have the right of breathing in a clear atmosphere. Although smokers and non-smokers think that in certain areas or public places the tobacco should be banned, in this case they are speaking about hospitals, supermarkets etc. Smoking in public places should be illegal but, at the same time the government should give sanctions for smokers such as programmes for give up tobacco, or restricted areas for smoking. It's important to know that smokers suffer a type of adiction and in some moments they need a cigarette and they cannot control themselves. So they need help or other options not only a prohibition. On the other hand, a good solution could be that the government make a prohibition about tobacco, they should banned to sell cigarettes. But goverment do not want this solution because they would lose the money of taxes in this way. It's a bit ironic that the government think about the possibility of making illegal to smoke in public places. Government should start taking into account about small thing such as, the prohibition of advertissment in walls or in different types of magazines, goverment also allow that the industry of tobacco writing smoking can kill but govermnent do not do nothing else. Non-smokers also have rights. in some public places they should breath authenthic pollution, and they damage themselves without smoking.



Smoking is one of those realities that not only has to carry the burden of being a politically incorrect habit, but also one of those things which are fashionable to criticise. We rarely see anyone protesting behemently against the progressive deterioration of public school funding in Spain, but as soon as the topic of smoking is brought up, we will undoubtely hear someone raising his voice against it. Facts aginst it are, on the other hand, well known by everybody : people dying of terminal illnesses, yellow fingers, black teeth... It would seem logical to assume that we need to stop this habit. But should we? As almost everythibng in life, smoking is something xxx. What is the point in making something as that illegal? Wouldn't it be for ther worst? Hystory teaches us that banning something only serves to create a bigger demand for it and illegal ways of getting it . Then, on the other hand, stands the issue of passive smokerss. Why people who don't like to smoke should have to start smoke-polluted air? It seems reasonable to legislate in some way the conditions on which smokers should be able to practice therir habit without disturbing non-smokers, the point here is understnding: Smoking will never be illegal although many people would like it to be that way, and neither would smoking be allowed everywhere, even when many smokers would love it. Smoking should be restricted in public areas, but not illegalised, or prohibited. That would be and extreme decision which would only create discomfort, as it already does in many countries. Unfortunately, those decisions are politically correct.


In my opinion smoking in public places should be illegal. There are many reasons to defend this idea. Firstly smoking is completely unhealthy not only for smokers but also for people around smokers. Tobacco provokes a lot of problems in people such as illnesses related to breath and also psychological complications such as anxiety, dependency and adiction. Apart from these problems, which are directly related to the body, there are also economic disadvantages; smoking implies to spend money to buy tobacco, and it is not precisely a cheap "habbit". But one of the most important problems of smoking is that doing this near other people smokers damage these non-smoking people. I mainly refer to children and pregnant women, although tobacco affects wrongly everybody. Fortunately there are areas for non smokers, but there should be more, for instance in places such as restaurants, pubs, universities, etc. The sensation that I feel when I come in a pub is horrible: my eyes and my nose suffer too much and the smell of tobacco is horrible. I think that Spanish should follow the example of other European countries and create more areas where smoking is restricted. I accept that a person wants to smoke and that he/sh likes it but what I can not accept is that this person damage other people with his/her smoking. I think that tobacco is one of the worst discovers because it is something that does not cause damage, but this is only apparently, because the fact is that smoking kills people. I consider too sad to see may people dying because of smoking. There should be more advertisment to warn about the consequences of smoking in order to make people aware about them. Another important question about smoking is the type of advertisment that tobacco companies make in order to get great benefits. On TV commercials about smoking tobacco is presented as something young, miodern, funny, etc. The message that they try to communicate is that if you smoke these cigarrettes you will be like them; this implies that you will be young, modern, fashionable, etc. Because of this many young children begin to smoke too young because doing it they feel fashionable. But these TV commercials do not talk about the wrong consequences of smoking. In my opinion these kind of commercials should be more severe and serious or simply and better do not exist. So, as I have said, smoking should be illegal because it is an enemy for the health of everybody. Unfortunately, it is difficult to achieve, so one right way to destroy it would be to make aware people and show to the youngest the dark side of smoking, which is its unique side.


The problem of smoking in public places is a very controversial topic nowadays. Most smokers have a clear opinion: it must not be banned. However, what do those who do not smoke think? Varied opinions are available. On one hand, there is a group of people (probably the largest one)who strongly believe that smoking in public places should be illegal. On the other hand, the more tolerant group of non-smokers argue that smoking is not a good thing, but that we should let everybody choose by themselves. Nevertheless, we still have the problem of the public health remaining. Therefore, it seems clear that, although both smokers and non-smokers should have their rights, not all public places are of the same kind so as to forbid smoking in all of them. Nowadays, especially in the most recent times, some people have started to see the fight against tabacco as something really necessary and important. Every day we turn on our television and we can watch a thousand advertisements about helpful products that will set you free from this vice. Even television shows are trying to beat Guiness records of people who have stopped smkoking thanks to them. Governments are taking serious measures in order to reduce the number of smokers. There are rising prizes and showing citizens the risks they take by smoking. But probably the most important measure they are now starting to take in Spain is that of forbidding smoking in public places because, as many studies have proved, passive smokers are very prone to getting one of the most feared illnesses: cancer. The biggest problem of all this seems that everybody has forgotten to ask smokers their opinions. Everybody is trying to prevent them from smoking, but no one has asked them if they really want to stop smoking. They get up one day and, suddenly, they are one of the worst problems the society has to fight against. In a world where everybody talks about civil rights, freedom of opinion and free will, they suddenly see their rights as smokers reduced. Of course, I suppose they do not want to damage other peop0le with their smoke. But, what if they choose to damage themselves? Other drugs like heroine, cocaine or even alcohol are much worse than tobacco and the fight against them is not so strong. What do we do then? If breathing other people's smoke is dangerous for passive smokers but smokers have the right to smoke, what do we do with public places? Do we make smoking illegal? Do we let smokers enjoy their freedom? This is a very controversial problem, but probably the fairest solution is one which respects both the rights of smokers and of non-smokers. Besides,not all public places should be included within the same category. For example, it is not the same to smoke in a hospital than to smoke in a pub or a restaurant. In a hospital there are sick people and they do not go there because they want. In a pub, you drink and smoke and you are there because you want to have fun and not because of a necessity. From my point of view it is not a bad idea to forbid smoking in some public places, but only if special areas for smokers are designated. Summing up, we all have rights. Neither non-smokers should become the "victims" of smokers, nor smokers should become the "victims" of non-smokers. The world is big and there is space enough for everybody in it.


We live in a world where everyday health is more and more important. People live much longer and want to pass their golden age as healthy as possible, so they can enjoy their years of retirement. Smoking has become in these last years one of the most controversial subjects. Scientific studies demonstrate that it produces cancer and many other lung diseases.So less people smoke and these people, do not wish to be in contact with smoke and its prejudicial effects. I bellieve that everyone has the right to preserve their health and not be uncomfortable in public places. I think that smoking should be banned in public places, not only because of what I have already said, but also because a non-smoker cannot go away from smoke, but a smoker can try not smoke in public places. Smoking is a personal option. Some people choose to smoke, not caring about their health or other consequences and other people choose not to do so. As smoking is a personal option, non-smokers should be respected in their option of not smoking, and not have to breathe smokers smoke. For non-smokers, the smoke produced by smokers is uncomfortable and not very healthy for them or their children. Scientific research has demonstrated that non-smokers in smoking areas become passive smokers. This is worse than being a smoker, because your defences are not used to smoking, so you are not only exposed to the dangers of smoking but these are increased.As you have choosen not to smoke, you have also choosen not to develope the same diseases or results of smokering. Even though, I would like smoking in public places to be illegal. I think that there should be places habilitated for them where they can smoke. It's not fair for a non-smoker to breather the smoke he/she is not smoking, but also unfair to punish them by not letting them smoke anywhere. I think that smoking in public areas should be illegal as a question of respect for other people. If I do not wish to smoke, I don't want to breathe it either and not smoking in public areas is a way of respecting my option and other peoples option. As I think that respect is mutual their should also be places for smokers to smoke because smoking becomes an addiction and as an addiction they need to smoke. If they are during many hours in a public places in some moment they will have to need to smoke and they will have to do it somewhere. Habilitating places for them would resolve the problem and help understanding between smokers and non-smokers. And maybe why not help them not to smoke if they have to go to another place to do so.


One of the essential values to make things easier in our communities are respect and tolerance, and for that, smoking should be banned in public places, since there's a high number of non-smokers in our society. I myself am a kind of compulsive smoker, and as a smoker I get frustrated when I'm not allowed to smoke in places such as airports or university buildings. However, as a person who lives in communities, I support such prohibition. Smokers enjoy having cigarrettes while drinking a hot cup of coffee, or while going out, but there're plenty of people who don't smoke. And it's not only a question of habits, but also a question of health. Many people suffer from asthma or other similar breathing dissease, and they cannot be in pubs or discos because they find it hard to breath due to the smoke that is condensed in the air. Sportsmen and sportswomen can't either afford being in a closed place where people is continually smoking- It's comprehensible, not everybody likes the taste of cigarrettes- If you're a person whose life, hobbies and proffession goes around a particular sport, for sure that the smell of tobaccoo and the breathing of its smoke is nothing but a barrel to achieve their success in such sport. Illegalisation in a country like Spain will be a difficult matter. It's a country in which habits-specially smoking ones- have been strongly rooted. Appart from that, spanish tobacco company, Tabacalera, moves great quantities of money, perhaps with multimillonary annual incomes, of which the national government is given a part. And for this reason, prohibition of smoking in public places will be a very very slow process here. However, changes have been produced little by little. Who could have imagined 3 or 4 generations before our that there would be restaurants wiht sections for smokers and non-smokers. Who would think that smoking in planes or trains would no longer be allowed? But, in fact, it is happening. Many habitual smokers won't be quite happy with this idea, but, to say something, it's a problem of habits, as I've already said. In british airports you're not allowed to smoke, and for a spanish, who is used to smoke everywhere, is something stupid and frustrating. I think that british used to think the same some years ago when the law illegalised smoking in public areas. But they got used, and if they could, why not us?


Why not? In my opinion, this is just a matter of education. If we had been educated in the same-gender couples society, we couldn’t have any doubt about it. And I think that as much is a society developed, much better will be the understanding in front of this marriages. In example, the Netherlands, it appears to be an opened society with opening minds; they were the first fighting for same sex marriages that got it. In Spain it will be quite difficult that society accept it because they are to closed to do it. We can see it everyday on TV or in the press, but our society is still thinking that the model they have ever seen, a pair man-woman, is the best we can have. About same-sex couples having children, I think that is also the same. I think many times what will I do if I wouldn’t have a husband and it’s better two of the same sex than one alone because boys and girls need mother and father figure in their lifes. But on the other hand, I have many friends that grew up with one of the members of the couple and they have been good persons with a normal behaviour. Another point of view is the one of the Catholic Church, I think they are not living the real life, they stopped their minds some centuries ago. They should refresh the way they think and don’t give their opinion about this kind of marriages. In sume, I am in favour with those marriages.


I think that it depends really on the situation and specially the place where it should be illegal. If we are talking about a bar or a restaurant we should take into account the three parts involved in this problem. One of them is the owner of the business. I am quite sure that the prohibition of smoking in bars in Ireland will make very angry the owners of the pubs, as they will probably lose part of the clientele. It this case it should depend on the proprietors’ decision whether to allow or not to smoke in their bar. Then we have the smoker, the person that goes to the pub to have a beer, have a little chat with friends and smoke a cigarette as a social thing. On the other side we have the non-smoker person that has to bear with a crowded room full smoke. For them it is also a matter of good manners. In some countries the solution of having different areas for smokers and non-smokers on the restaurants seems to work. Then, there are all the other public places: banks, hospitals, schools... At work it seems to be different as it is not a place you go to enjoy yourself. At least you choose whether to go to a pub or not. For some people to make such a fuss about this matter is a response of a big mediate campaign. For others it is quite the contrary, this campaign has been done to stop the increase of people that smoke. I am neither in favour nor against smoking in public places but I do sometimes wonder why should be illegal to do something that it is legal.


I think that the marriage of persons of the same sex should be allowed, first of all because we are free to decide what we want or which is the person we want to love. It is allowed in some places, here in Spain in Catalunya, and I think it’s a big step to open our minds, to understand: other points of view of living the sexual life and to know this people and respect them. It’s difficult to understand and to explain this situation, specially if I don’t know their daily life is. I am sure about one thing: they are HUMANS like you, and me, and all, and they have RIGHTS in the same way for being able to make their dreams come true and getting married as all of us. Talking about our RIGHTS, the free expression, the freedom are very important ones. And I think that our sexual option is a consequence of it. We are free to choose, and to express it. To repress our feelings or what we want to do it’s too bad, and it can bring us bad consequences. If nobody is being affected because of the decisition of homosexual persons, I don’t see the problem with leaving them getting married. I don’t know if what I think is right or wrong; who knows it? But in my very personal opinion, people has to be allowed to bet married with persons of their same sex, and everybody should understand them, and leave them to live their own life as they want.


I am quite sure about the fact that if you look up the word ‘love’ or even ‘feeling’ in a good dictionary there would be no reference or relation to a particular sex. Feelings or love can be found inside any human being without restrictions, so, why can we restrict the object of the feeling or of love to a person of a sex opposite to the one of the subject who loves or feels? Men and women are able to think and feel in the same way and nobody has enough power to indicate them what do they have to do. Furthermore, according to the Spanish Constitution all human beings are equal, having the same rights and also the same duties; so that, if we understand getting married as a right and if we add the fact that all human beings are free to choose, anybody would have to be allowed to choose the person with whom they would share their life. On the other hand, I believe that people should change their minds and forget the idea that makes them understand getting married, or in other words, putting a signature in a paper, as something so important. From my point of view a signature does not make stronger links between two people, does not increase feelings, does not imply that you are going to give without thinking about what you are going to receive. Do people think that they are selling their lifes or even their whole existence to their lovers? It is quite difficult, even impossible for me to introduce myself inside the mind of married people: what are their values? Why did they choose this option? Was it just a mere tradition in their families? But ignoring all those questions for which I would never find one answer, if I had to make up a theory to explain the taste of people for getting married I would come to the conclusion that we are so insecure, that we are so afraid of feeling alone that we look for a strong link, something difficult to destroy among people, we want to be sure that we are going to have at least one person next to us for all our lifes. So that, and to sum up, all people should have the same opportunities, marriage would be allowed for everybody but maybe after visiting a pair of psychologists to clearing up our minds.


To prohibit smoking in public places is important, we could see everyday information that talkabout this injurious habit. Most people in our society is concerned about the problem, but they’re still some who keep on breaking the rules. It isn’t difficult to see someone smoking a cigarrette on a bus even when is prohibit, or next to a pregnant women, even though we know it may be dangerous for her baby. The sanitary authorities are making great efforts in order to help people to leave that unhealthy habit, they promove special courses and give prizes as trips I can understand those people who thinkwe’re hunting smokers, they have special places in restaurants, planes, trains... But as I see it, we need to preserve our health. I have not chosen smoking,so I have the right of breathing pure air. Their freedom ends where it starts mine. In my opinion it is neccesary to forbid smoking in public places, but perhaps making sure that the law is respected is even more neccesary. Nowadays they’ve got the chance and the help to leave smoking, we can’t do more.


This is a very controversial theme, because there are very different opinions about, and that problem can affect the rights of the people non smoker, and as well, of people who smoke, because people non smoker people should have the right to inhale pure air and they shouldn’t have to suffer the effects of the toxic air the smokers cause, such as lungs’ cancer and heart’s infart, that is demostrated that are caused by nocive effects of smoking, and the fact that the smokers made the clean air become dirty make the non-smoker inhale it and have the effects it does on smokers. It could be a really nice question to ask about the fact that the industries make the world’s air get dirty, but this isn’t the theme we’re talking about today. Smoking shouldn’t be allowed, because, such as cocaine or crack, is very bad for health, it could cause people die, but the problem to stop allowing it is the fact that it generates really nice money, and it wouldn’t healp a country to stop it while other countries keep allowing it, this problem is similar to weapons, no one country wants to stop getting them, but if one does, it would be an easy attack point for others.


I think the marriage of persons of the same sex should be allowed because they are persons, and if the marriage of persons of the diferent sex is good for all people, should be it of the persons of the same sex, too. If someone do not be secure with persons of the diferent sex, if one person do not like other person of other sex but on the other hand that person fall in love with person of the same sex, why they not would get marriage? In My opinion, people that said the marriage of persons of the same sex shouldn’t be allowed, they said that because they feel nervous with this people. I think that those people thinkthat they are more important or more intelligent that persons get marriage with persons of the same sex and this would not be. My religion, Catolicism, isn’t agree with marriage of persons of the sme sex, they considered it inmoral, in there opinion is something innatural. Maybe the most people aren’t agree with that marriage because they are very religious and they have got fearxx. In the most countries the marriage of persons of the same sex isn’t allowed. Here, in Spain, those marriages are allow but since a few montsh. To conclusion, in my opinion the marriage of persons of the same sex should be allowed.


From my point of view the marriage of persons of the same sex should be allowed in Spain and all over the world because it's a natural situation provocated by the humanity and we can't avoid that although we don't like it. The unique possibility it's starting to assume it and act according this. In one hand, we should realize in what world we're living and break with the traditional stereotypes. Spain is a catolic country that's why catolic people don't understand the marriage of persons of the same sex. They don't want to break the structure of the traditional family because they aren't used to taking decisions by themselves. The church and the Catolicism say that the marriage can only made by persons of different sex because it's the natural condition of the humanity. But who are they to say a thing like this??? Heterosexual people? Repressived people? Traditional people? In the other hand, they're too many people who should have the same opportunities like others ones. Nowadays, the freedom to choose what you want or what you need is the most important thing for us. However, there's another main feature in all this and it's the important of the love. It's very difficult to find the appropriate person to spend all your life and if you get it why you should be worry about his or her sex. The happiness is something more deep.


Our education is suppose to be a way of working in the real life, but the truth is that you finish your studies and then starts a new education. I have just finished my physiks degree. When you finish it, you think "oh, fantastic, I can work!" and then the reality sticks you. The first thing is doing the curriculum vitae. "OK, fine", it takes you a long time, but you do it. Then you go to the INEM office, and they ask you what studies you have. OK, no problem. The INEM will not find you a job so you don't care. The next step is the Internet, and that is the moment you realize, you are not prepared for working. You are looking for a job where experience is not required because you don't have it, but the problem is not the experience only, because you have to know a lot of computer languages that haven't been teached to you. My degree has a lot of practical subjects, but in none of these I learn a word about what I am asked for in most jobs. Some of thing you must know to go into jobs world are very specific, but most of are not. So after being working hard for getting the degree you start again, this time you have the degree but you don't have the knowkledge so you know what you must do: you must spend a year learning, for being teacher: the CAP. If you want to became a doctor: you prepare the "Tesina" and the "Tesis". If you want to work in a firm: Any kind of computering languages and programs. In the most of cases: Doing a master and spending more money that you don't have. Some people do practise in a firm in a way that the firm teaches what they need for working and then they give them a job. And after that I ask myself: Why on hearth did nobody teach me what I really need? I'm sure that I'm lucky in having a degree, maybe my jobs conditions are not good, but if I don't have it, they would be worst. I think the main problem is that the university degrees are not planned for working, just for learning. You must learn a lot of different subjects you will never find out where is the use or the interest. A friend of mine says that a degree is no more than a obstacles race for getting a "medal": a degree I studyed a degree that has a lot of practical subjects and I have this problem, but what does it happens in the degrees that don't have it?The rates of unemployed people are there. A lot of people is working in something that they haven't learn in their degree and a FP studient is better qualified than a university student in at least half time and much less studied.


After being in Santiago for about five years studying English Philology, I totally agree with the fact that this degree is basically theoretical. Yes, Palacios, it is theoretical because we were not taught from the practical point of view. Thousands of books to read just before the exam without taking time for thinking and analysing them carefully. English Philology students don’t know literature in depth and that makes them to go abroad in order to get the language skills. As far as I remember, the last course of English lasted a couple of hours a week, so I did have to go to a private academy in Santiago to keep up with my English. Just if you think about how many times we presented any topic orally, you would realize that English Philology is not good for practical aims. As far as the teaching is concerned, I would assure that we are not well-prepared. We need more didactic background and CAP course is very little. On the contrary, we’d rather make this situation a bit more positive by listing a few tips which may be useful to take into account and they are as follows: - You should make students to think about the current tendencies about methodological methods which I know you did in Perspectivas Metodológicas but only one subject is not enough. - You should make students to talk about any of the units of the programme in front of the other students as a real class. - More English language practice is strongly neccessary as me myself and many other classmates are still in advanced level trying to pass the Proficiency Exam and Oposiciones about Secondary Education. - More things need to be said but I don’t have enough space, so I am 28 years old and there’s no POST for me.


Smoking is an old deal that nowadays has gained much actuallity. This is a bad habit that makes great damage to health, as the doctors usually claim; but it wasn't until recently that people got really concerned about this problem, and so did Government. The government has been taking in the last years different measures to stop people from smoking, the latest one in which they are thinking about is making illegal smoking in public places. Great polemic has risen because of this government's proposal. Firstly, smokers believe that it goes against people's freedom, because it implies a restriction for a certain group of people not letting them behave in their usual way. Connected with this, special places for smokers are being available in some public places. Although it seems a good measure, smokers understand it as a discrimination and moreover, the bad image the media gives about smokers increase this bad feeling. On the other side, non-smokers also claim for their right to be in public place cleared of smokers. As they have decided not to smoke, they expect not to suffer the bad consequences of other's smoke (it is believed that if you are next to a person smoking, you're also smoking part of his cigarrette). In this sense, they would probably agree with making smoking illegal in public places. Even though, many of them could possibly think that it's a better measure to enable special places for smokers, so that they can go to the same places as the non-smokers. To conclude, I'd like to say that I'm a non-smoker person and, having in account both sides of the problem, I think that it's not fair making smoking illegal in public places, as everybody has the right to decide where he wants to go.


I finished my degree three years ago, and some of my friends have finished this year, so this is a question we were talking a lot recently. I think it has a difficult solution, is very easy, in a chat with friends, to talk about the things that are wrong and the way to solv it, but to be able to do it can be really difficult. In one hand, you have to learn a lot of things in just five years! It's imposible to learn everything about something, it doesn't matter what, in such a few time. I mean, no one is able to learn in five years what a proffesional learns in thirty years of work. So a degree, must shows you the bases, the main things and how to solv the problems you will find in your work, and I asure they will be a lot . Therefore you have to learn a lot of information in a few time and I don't know another way, appart from studying, to learn this amount of things. In the other hand, I don't agree with the method of a teacher speaking an hour long and the students writting what he is saying without understanding what they are writting. I'm sure that there are better ways of doing things. To me, the most important job of a teacher is to make the students understand what he or she is teaching. In conclusion, it's difficult to change things, I know, but maybe a mix of both ways would be better. I remember teachers saying the first day of the class, that it was a difficult subject and everyone will fail if we didn't study really hard. I think they were wrong, I think they were bad teacher because they didn't know how to make us understand what they were teaching us.


I think that most university degrees are very theoretical, so students finish their careers with a lack of acknowledge. Otherwise I don't think that the spanish university degrees were valueless. In my opinion, our students have a strong theoretical acknowledgement that can help them to find a job, but perhaps there were a lack of practical in the careers that they are forced to improve. We must center the reasons of this problems. Firstly we have the longest careers in Europe, but it seems like all this time were useless. Are we really spending all this years studing unuseful things? I don't think so. I think that the point of view in other countries is different. They explain a more practical lections and reduces the contents comparing with our careers. The students learn less, but what they learn is useful to the jobs they wer going to develop. In Spain, a university student learn a lot of things that would make him or her capable of developing a great number of jobs. What is better? Secondly, society has been changing so fast in the latest years that the rigid structures in the University were not able to change with this speed. Sometimes I feel like teachers and students were amazing and wandering, wondering what's happening or what's wrong in University. And worse is that noone knows where are University going. That's is the third great problems. Suddenly, a change is necessary! Thus politics began to change without thinking, against all - teachers and students. All people in University became crazy and desoriented but finally nothing changed. Noone want to take serious change, so we change a couple of things and feel calm. Summing up, there are a lot of problems at the University. I think that the most important is make a serious revision of the contents of each subject and even of the subjects of each careers, offer a good study of what the society is needing.


Most university degrees are theoretical and do not prepare students for the real world. They are therefore of very little value. At first, I would say that I am studying Magisterio, because I would like to become an English teacher. I don't know how is this theme in any other university degree, but I can talk about the one that I am studying. Along the three years that occupates this university degree, students have near three months of practical situations. I mean, during the second year we have a month and a half to stay in a Primary School and during the third year we have another month and a half. I have learnt more during those three months that I have been working in a school with "real teachers" that during the three years that I have been receiving theoretical in class. When I went to have my first experience in a school I wasn't prepared at all because nobody at university tought me how to be in front of twelve or fifteen boys and girls waiting for you to teach them something interesting. The first thing I thought was that I would never reach my goal, that it was to become a good school teacher. Most part of my university subjects don't prepare students for the real world, even more, I would say that most of them don't help students to learn what they have to learn for the real life, what is suppose to do. Finally I would say that as my case, there would be a lot more, but I only can talk about what I know, and I think that most university degrees don't prepare students for real world.


Most university degrees are only theoretical and do not prepare students for the real world. For example, in Spain there are many degrees that are only theoretical. Many students who are studing a degree they have only theoretical classes and they have few practical classes. They should revindicate their rights for having more practical classes. But the problem of not having practical classes comes when a student finishes his degree and he starts to work. In that moment, the student realizes that the theories that he was learning during the degree were not useful for everyday life. Because in a job you should use the theories that you learnt before but you have to apply them to practical projects. Nowadays, there are many degrees where there is no practice. For example, degrees such as philosophy, law, science ... This degrees should have many practice, because a person who is learning a language should have many native teachers, and grants to go to the country where it speaks this language. For example, in law they should work in offices with lawers to know how they work ... So, every degree should have more practice than theory and in that way the students finish the degree in a useful way and they should be ready to work.


Nowadays it is forbidden to smoke in many public places. Every smoker has to try to respect this but I know that it is quite difficult for them. I am a non-smoker but as I could perceive in my surroundings it is quite difficult for smokers to give up this habit. On the one hand smoke should be forbidden in public places because the smoke affects everyone. I can’t stand staying in a pub if there is no air-conditioning. When I go out I find myself with many difficulties to breathe. This is one of the reasons why I think it should be forbidden. However, I know that if we passed this new law it would bring many problems to our society, specially economic problems and many factories would go bankrupt. A good idea would be to have different areas for smokers and non-smokers though we know that if we did that in every place it would seem like we were different species. In the train you could see this example. Sometimes being a non-smoker you have to try to sacrifice yourself in order to stay with your friends. If I think that it would not be a bad thing to prohibit smoking it’s because in some countries like Ireland this is a fact and it is giving very positive results. Also in Madrid there are many pubs in which is not allowed and in spite of this many people go to these places. This would be a way to make the people conscious that smoking is a very destructive vice and that we have to try to smoke less if we want to improve our lives. We have to try to make them face that they can be independent from this vice and that they can have a good time without smoking. Doing this we would also have in our society less young smokers.


The prohibition of smoking in all public places is a good idea from the point of view of medicine, although most people reject this thought. It is clear that people who earn money with tobbacco will dislike this idea, because if people can not smoke in almost no place, they will leave tobbacco aside. This, of course, will suppose a great loss of money and of tobbacco itself. This change would not be immediately, but little by little. People who have starded smoking many years ago, probably would continue smoking in streets and in their houses, but it is true that the new generations of teenagers will not start smoking and it is a good point, at least, so as to improve our health. I’m sure that smokers do not like at all this idea although they know that it is a possible solution to a problem that affets people from all over the world. I think that it is a good idea but it should take place in the course of several years, not suddenly. At the same time, I think that if finally they do not forbide us to smoke in all public places, there should be some places free of smoke.


The notion of love is the main base in the union of persons for the rest of their lives. Other factors like economic, political, etc. can have importance but never the same as the love. If the love is the main factor, why people of the same sex cannot join their lives if it is that they want? In religious terms we should respect the fact that catholicism doesn’t allow this kind of marriage, but they must also know that gay people don’t want to marriage themselves under the catholic rith but also under the civil one that gives them the same rights and obligations as the heterosexual marriages. But I also think that gay people should know where should they have the limit of their rights, I’m referring to the adoption of childrens by gay couples: I think that all the people have the right of be father or mother, but also the childrens that doesn’t have the enough sense to think by themselves should have the right of that someone thinks by them and give the opinion that a children doesn’t grow in the same way being son of a heterosexual couple as a homosexual couple. In my opinion the society should wait before allow this kind of adoptions because we don’t know how a boy or a girl is going to grow in a atmosphere so different as the actual ones. I’m not saying that two men or two women are not capable of educate a boy in a good way but I’m not sure if all the society is going to accept it. I’m talking, for example, of the jokes and mocks that a boy can suffer in his school by the simply fact of having two fathers, we know how cruel children can be, and the person that is going to suffer more allways is the boy. Is only a small example but we don’t know also if a couple of fathers or mothers is going to educate a boy even better than an heterosexual couple, that also can happen. Is for that, for the fact that we don’t know how this kind of adoptions are going to be that we should wait and walk slowly in this sense. But of course, if Paco loves Javier or Rosa loves Eva they should could married between themselves, and have the same rights and obligations as a conventional marriage.


I think that smoking in public places should be illegal and there are a lot of reasons for doing it. First, smoking causes terrible injures in people’s health and anybody would have to suffer them if he/she doesn’t smoke. Smoking is a personal election, so smokers shouldn’t impose their election to the people that are around them. This is specially true in the case of pregnant women or ill people who cannot breath smoke in any case. In my opinion if smoking was illegal that would have very positive effects for everybody. One of the positive effects would be that some smokers would stop smoking so they could improve their health and their economy. Another positive effect would be that the state could save a lot of money in illnesses that are closely related with smoking like heart attacks and some kinds of cancer. At last a lot of people who don’t smoke could live of work in a clean ambient and they wouldn’t have to suffer the consequences of another people’s vices. However, there are a lot of people, most of them smokers, who say that forbidding smoking in public places would suppose a persecution against smokers. It’s funny that smokers say that because they are the ones that impose their smoke to the other people. Another reason that smokers argue is that if smoking is so bad, (it) tobacco should be banned. The reason why tobacco isn’t banned it’s cultural and because of traditional reasons. Also, smoking in private don’t causes injures to anybody. At last, for all these reason I think that smoking in public places should be illegal and if that happened everybody could live in a more civilized and cleaner world.


Should the marriage of persons of different sex be allowed? Is there any doubt about the answer? What are all of us? We are persons, and everyone should choose without problems the way in which he or she wants to love. People think that everything have to be stablished, everything have to follow the same pattern, and that is the great mistake because every person is a world. Inside our own world, we can share or have things in common with others and in this way, by similitudes, we tend to be and live with people who make us happy, or good, or whatever. Who says there is something estrange love between persons of the same sex, does not care real feelings, because that is what is really important. If a couple like this want to marry, why they should have problems? They would not be causing problems to anybody, so, let's go! The problem here are the prejudices, church, ... society and cultural points of view, that are afraid from they don't know. I am not able to understand why this would be a problem so I can't argue in a best way.


In my opinion, smoking in public places should be illegal and in fact I think it would be so in few years as in other countries. Since I am smoker it would be expected from me not to think so. The question is that everyone can chose whether to smoke or not but being it allowed in public places many non-smokers have no other option that to become passive ones. I take as an example the situation in Ireland where smoking in public places have been banished a year ago. At first this can be seen as an abusive measure but there are many factors to take into account. The 1st one are obviously non-smokers who can go everywhere, even to pubs or discos enjoying a healthy enviroment. This is even more important when speaking about workers who cannot chose to go to a place depending on whether smoking is allowed or not. I didn't see this so clear till this year when I was working in Dublin as a waitress in a pub. Even when the place was crowded there was no that feeling as in Spanish pubs where the atmosphere is so heavy that there is difficult to see or even to breath. The 2nd factor are the smokers themselves because even if they decide to keep on smoking the number of cigarettes will be diminished since they have to get out the place they are to take one.


When I started to study in the university I thought that at the end I could be a person with a lot of knowledge, instead of this I feel that I didn't learnt too much in three years, and the most of the things that I know now I learnt it by myself, travelling, reading and looking for information about the subjects that I was interested. In the case of english think that is always better to have lessons because the most important it's to practise but when my friends and I went to Ireland we discovered that our level of english it wasn't so good and we weren't prepared to have a conversation with the people of the country. On the other hand have studies it's not meaning that in the future we'll have a work, at least not the job in what we are interested. Go to the University it's an opportunity that we have to value positivity and; anyway, it's better that don't have nothing, but it's not the places that I had imagined, there are a lot of theoretical lessons and the practises that we do aren't enought, and there are not always a relationship between the subjects. I don't want to left the faculty because I really enjoy study but expectatives haven't been completed. I have not choice, I mean, the best thing that I could do now it's study at university (I really like it) but if I could I would do more that one change, starting to thinking about what are the mistakes of the system, what are the things that people needs, what are that people want's and what are the things that the world (specially the laboral world) want about us.


From my point of view, the marriage of persons of the same sex should be allowed (Fortunately, it is allowed right now) because, in my opinion, to be homosexual of lesbian is not a crime, and I think that they can have the right of marriage. We live in the 21st century, not in the 8th century. This is supposed to be a progressist and laic society where we have finished with all this stupid and intolerant christian concepts of what is right and what is "against nature". I would say to those people who don't like the marriage between homosexuals: "They have committed any crime to not have the possibility and the right to marriage?" Marriages of people of the same sex are as normal as "heterosexual" marriages, and now is the time of destroy the traditional and rotten concept of marriage and family, because nobody can judge a person for his/her sexual option they can be good husbands/wifes and good parents as the other people. In short, marriages of persons of the same sex should be allowed always.


Nowadays, most of the university degrees are theoretical and do not prepare students for the real world. This is a very important matter, because we have to understand that many people spend between 3 and 5 years (or more) studying something that will decide his/her future; and if that degree does not prepare them for the real world, all the time, the money and the efforts of those years would be totally unuseful. So we have to think about it, and we have to see that the future of the students it is not a game. But if one degree has more theory than practise, we do not should think that it is of very little value. It is only that it is not well-defined, and we should contribute to the solution of this problem.


I think that the marriage of persons of the same sex should be allowed. In the course of time institutions such as church has learnt us that the marriage has to be with a person who has a different sex. It supports this idea with its principal text, the Bible. Our ancestors were educated with moral and religious principles given by the church, and this kind of marriage was considered the normal way of linked with other, or the only way allowed by the main institutions. The Church had the power and people wer obligued to accept these rules. The goverment was linked with the church and it followed its rules too. Many times the head of church and goberment was the same person. In the course of time many changes took place, many advances were inserted in out society. The church, little by little, was los the power, and many people don't follow its rules. Nowadays, society is, supposedly, more advanced and it hasn't a lot of prohibitions. Society is more "free". People can say their thoughts, their sexuality and nobody has the right to judge. But this is the theory. The fact is the sexuality is one of the basic topic in our society and everybody is interested in the sexuality of his/her neighbour. When someone doesn't follow the rule, this person is judged. (The rule, the pattern follow or learns by the church). I think that nobody has the right to judge the others. Everybody has to have the right to choose his/her partner and the possibility to marry with him/her. The sexuality is less important. The most important is "love", the less important is if he/she marries with a man or a woman. I think that the question if the marriage of the same sex should be allowed musn't be done because this kind of marriage should be a normal thing in our lives. Because the important in the marriage isn't the sex of components, the important is the feelings which both parts show. Human beings haven't the capacity to choose or to judge about the life of the others. Human beings aren't born with any kind of right to the others. Human beings must think about their own feelings, thoughts, keep respect with the others, they must find their happiness without disturb the others.


In my opinion, homosexual marriage should be allowed because of one simple reason: homosexuals are like the black people of the sixties in the U.S.A. They have their rights to live like "normal" people because there can be love between two people of the same sex. Personally, I'm not concerned about the fact that they can adopt children. If that children live in a good home there's no problem. In fact, scientific works about this topic demonstrates that a child can live without any traumatic behaviour. In other sort of things, I have to say that this topic doesn't scare me too much. I think it's a battle that was won from the beginning. The Gay movement is a snowball that grows and grows and nor the Church nor other movements are going to stop it. If society is not prepared for homosexual marriage, society must prepare itself for it. It's time to forget the traditional meaning of marriage and understand modern times. Homosexual people exits from the Classic Greece so humanity had enough time to bear it.


Smoking in public places should be illegal because non-smokers are usually bothered with cigarette's smoke, and I think that it is not fair that they had health problems if they don't smoke. Everybody knows that smoking provoques health problems such as cancer, and it is not just that people who didn't chose the option of smoking had to be at hospital only for being in public places, such as bars, pubs, trains, discos and so on, being all these places where it is supposed that everybody can stay in. Apart form this, dangerous situations can be created due to the presence of smokers in public places such as bars or discos, I mean, for example a fire can start because a cigarette is near of a curtain or of something made of paper, and non-smokers can become victims of a situation created by a smoker. People don't use to think on this kind of things, but they can really happen, and as a matter of fact, anybody can see this kind of news in a newspaper or on the television, where for example many people die when a fire starts in a disco when someone is smoking inside it. It is also necessary to think that when a person is smoking there can be a pregnant woman near, and that this smoker is causing sever problems to a little child that can not defend himself, or to an asthmatic person whose life can depend on the cigarette of another person. In brief, from my point of view smoking in public places shouldn't be allowed because smoking is a personal option, and people that don't chose this option don't have to pay the consequences of other persons' vices.


I am not totally in favor of not smoking in public places, but I think that there should be places for smoking and no smoking. For example in a restaurant there should be a section for no smoking people and another section, apart from that, for smoking people. In the case of the aeroplanes, I think it is right no to be allowed to smoke; but in the airport we have to have a section for the smokers, because we have to understand that after a trip of X hours, the anxiety is bigger and they want to smoke, so in that place they could satisfy themselves and people who does not like the smel of cigarretes could not necesarilly pass through that smoking area. In the case of banks or administration offices, I am in favour of no smoking because, it would not be able to divide them in areas, and it would be problematic. In any case a normal person goes to the bank for some specific reason and would not spend too much time, and then he could smoke. For the employers, well, I am in favour of not smoking in working hours, they could maybe smoke in their lunch-time, and when you get a job you know if you could or could not smoke, so you already know with what you are dealing. In open spaces like parks, everyone should be able to smoke because, it is a different atmosphere. In conclusion, I think that there are places where should be completely forbidden, and others where there should be smoking and no smoking areas.


The aim of this composition is related to the marriage of persons of the same sex. Marriage is not only forever (as the Church says) but also it is accompanied by some rights. From my point of view, if people who love each other can choose marrying or not, why cannot homosexual people do the same? Marriage is, in my opinion, a question of love: I love somebody, I want to marry him and there is no problem because the society and all the institutions allow me to marry. Well, I love a woman, I want to marry her. Stop! Because some people could say that we are indecent, a priest will never marry us and other things like these. Am I guilty of loving a woman? Marriage, a difficult decision but it's more difficult if society doesn't give you the opportunity of doing although marriage is the thing that you desire. I think that homosexual people should have the same rights as heterosexual people because all people are human-beings according to God.


